File: Test-HDF/dump/21-hdf5_v6-two-spectrometers_dump.dat
# EVEH5Version	 = 5.0
# Version	 = 1.29.1
# XMLversion	 = 6.0
# Location	 = KMC
# SCML-Name	 = CZ_ISIBAT.scml
# SCML-Author	 = u49pgm@roe
# StartTime	 = 17:40:29
# StartDate	 = 25.05.2018
# FileFormat	 = HDF5
#
# MotorPositions:
# 	Counter	 = 0
# 	FILTER_1	 = {25um Be}
# 	FILTER_2	 = None
# 	FILTER_PINHOLES	 = Al
# 	REF_DIODES	 = None
# 	DIODE_IN_MONO	 = Out
# 	DIODE_BEHIND_MONO	 = Out
# 	COATING_2nd_MIR	 = MgF2
# 	NRFA-2ThetaTYdiscr	 = {SXUV 100(09-06)}
# 	NRFA-Diode2discr	 = Undefined
# 	Energy	 = 2490
# 	Mono_1st_wheel	 = 52.57145
# 	Mono_2nd_wheel	 = 52.5714
# 	Mono_cr_change	 = 54.0
# 	nomTemperature	 = 29.9
# 	Bias_K3	 = 0.0
# 	Bias_K1	 = 0.0
# 	Scanner Channel	 = 1.0
# 	Bieger	 = 2.1
# 	Filter_1	 = 66.5
# 	Filter_2	 = 99.7
# 	Mirror_1_hor	 = 0.0
# 	Mirror_1_vert	 = -0.48
# 	Mirror_1_theta	 = 7.50038
# 	Mirror_1_psi	 = -1.35
# 	Beam_pos_vert	 = 1.0
# 	Beam_pos_hor	 = 1.0
# 	Slit_1_up	 = 23.9
# 	Slit_1_down	 = 13.9
# 	Slit_1_right	 = 26.03
# 	Slit_1_left	 = 15.54
# 	Slit_2_up	 = 34.65
# 	Slit_2_down	 = 13.88
# 	Filter_CCD_pinholes	 = 51.5
# 	Ref_Diodes	 = 1.0
# 	Crystal_2_theta	 = 8.0627
# 	Crystal_3_theta	 = 3.57124
# 	Crystal_2_phi	 = 3.8558
# 	Crystal_1_phi	 = 2.123625
# 	Crystal_3_phi	 = 19.9
# 	Crystal_4_phi	 = 4.20125
# 	Diode_in_mono	 = 90.0
# 	Diode_behind_mono	 = 5.0
# 	Slit_3_up	 = 7.55
# 	Slit_3_down	 = 6.15
# 	Slit_3_right	 = 21.5
# 	Slit_3_left	 = 21.5
# 	Mirror_2_hor	 = 24.0
# 	Mirror_2_vert	 = -1.73
# 	Mirror_2_theta	 = 7.58222
# 	Lift_table	 = 614.25
# 	Slit_4_up	 = -0.90875
# 	Slit_4_down	 = -1.71875
# 	Slit_4_right	 = 3.6675
# 	Slit_4_left	 = -0.4125
# 	Pinhole_1_y	 = 5.0
# 	Pinhole_1_x	 = 1.9
# 	NRFA_Theta	 = 45.0
# 	NRFA_Chi	 = 90.0
# 	NRFA_Phi	 = 90.0
# 	NRFA_Probe_X	 = -14.9
# 	NRFA_Probe_Y	 = 1.8
# 	NRFA_Probe_Z	 = -2.2725
# 	NRFA_2Theta	 = 0.0
# 	NRFA_2ThetaTY	 = 25.9106
# 	NRFA_BlendeTY	 = 66.0
# 	NRFA_X	 = 2.47375
# 	NRFA_Y	 = -3.085
# 	NRFA_rot	 = -1.473
# 	NRFA_Diode2	 = 75.65785
# 	NRFA_Diode43_TY	 = 195.0
# 	NRFA_Diode43_TX	 = -0.4
# 	Slit_1_vert_pos	 = 0.0
# 	Slit_1_vert_size	 = 3.0
# 	Slit_1_hor_pos	 = 1
# 	Slit_1_hor_size	 = 6
# 	Slit_2_vert_pos	 = 0.3
# 	Slit_2_vert_size	 = 15.0
# 	Slit_3_vert_pos	 = 5.2
# 	Slit_3_vert_size	 = 4.4
# 	Slit_3_hor_pos	 = 2.2
# 	Slit_3_hor_size	 = 15.0
# 	Slit_4_vert_pos	 = -0.1
# 	Slit_4_vert_size	 = 2
# 	Slit_4_hor_pos	 = 2.64
# 	Slit_4_hor_size	 = 2.0
# 	date Timer	 = 2018-05-25T17:40:29.758+02:00
# 	Timer	 = 0.0
# 	msec Timer	 = 0
# 	bsdd2_PreLifeTime	 = 10.0
# 	bsdd2_PreRealTime	 = 0.0
# 	bsdd3_PreLifeTime	 = 10.0
# 	bsdd3_PreRealTime	 = 0.0
#
# DetectorValues:
# 	Keysight1	 = -2.17312e-13
# 	Keysight2	 = -3.42168
# 	Keysight3	 = 4.68e-16
# 	Keysight4	 = -1.0274e-14
# 	AGNRFA_01_Theta	 = 0.0
# 	AGNRFA_02_Chi	 = 0.0
# 	AGNRFA_03_Phi	 = 0.0
# 	AGNRFA_04_Probe_X	 = 0.0
# 	AGNRFA_05_Probe_Y	 = 0.0
# 	AGNRFA_06_Probe_Z	 = 0.0
# 	AGNRFA_07_2Theta	 = 0.0
# 	AGNRFA_08_2ThetaTY	 = 0.0
# 	AGNRFA_09_BlendeTY	 = 0.0
# 	AGNRFA_10_Probe	 = 0.0
# 	Mono_Cu_Temp	 = 32.7184
# 	Cr_1_Cu_Bloc	 = 31.0979
# 	Cr_2_Si_Temp	 = 32.0073
# 	Mon_Gear_Temp	 = 34.519
# 	Cr_3_Si_Temp	 = 29.7315
# 	Cr_4_InSb_Temp	 = 30.1154
# 	bsdd2_prelifeTime	 = 10.0
# 	bsdd2_prerealTime	 = 0.0
# 	bsdd3_prelifeTime	 = 10.0
# 	bsdd3_prerealTime	 = 0.0
# 	Keithley_3	 = 8.2141e-13
# 	Keithley_1	 = -0.002
# 	Scanner	 = Can500A
# 	bruckersdd3enc	 = 144.5
# 	Bessy_Ringstrom	 = 248.996
# 	Bessy_Lebensdauer	 = 7.60863
# 	Offset_1st_wheel	 = -7.109
# 	Offset_2nd_wheel	 = 210.012
# 	SM-Counter	 = 2
# 	NRFA_P1_Kammer_kap	 = -5.5
# 	NRFA_P2_Kammer	 = 4.593e-7
# 	NRFA_P3_Schleuse_kap	 = -2.4
# 	NRFA_P4_Schleuse	 = 3.301e-07
# 	NRFA_P5_Vorpumpe	 = 0.3119
# 	NRFA_P6_postbeamline	 = 0.0
# 	date Time	 = 2018-05-25T17:40:29.797+02:00
# 	Time	 = 0.073
# 	msec Time	 = 73
# 	PTB_U49	 = 23.2562
# 	Ring_1	 = 248.544
# 	Lebensdauer_1	 = 7.36666
# 	TopupState	 = decay
# 	Ring_2	 = 248.561
# 	Lebensdauer_2	 = 7.32599
# 	Pot_Mi_1_hor	 = 3.50577
# 	Pot_Mi_1_vert	 = 3.08789
# 	Pot_Mi_1_theta	 = 3.77735
# 	Pot_Mi_1_psi	 = 5.36377
# 	Tilt_Mi_1_theta	 = 8.31546
# 	Tilt_Mi_1_phi	 = -3.5326
# 	FCM_Diff	 = -0.0010016
# 	Tilt_Mono_theta	 = -0.0924145
# 	Tilt_Mono_psi	 = 0.172566
# 	Pot_Mi_2_hor	 = 1.96955
# 	Pot_Mi_2_theta	 = 3.47197
# 	Tilt_Mi_2_theta	 = 5.49797
# 	Tilt_Mi_2_phi	 = -0.337411
# 	Pressure_Bender	 = 2.09517
#
# Plot:
# 	Motor	 = Energy
# 	Detector	 = bsdd3_Roi1
#
# Motors:
# 	Energy:
# 		XML-ID	 = Energ:io0500000cff
# 		Name	 = Energy
# 		Access	 = ca:Energ:io0500000cff
# 		Unit	 = eV
# 		DeviceType	 = Axis
# 	bsdd2_PreLifeTime:
# 		XML-ID	 = preSetBRQM1:mca04.PLTM
# 		Name	 = bsdd2_PreLifeTime
# 		Access	 = ca:BRQM1:mca04.PLTM
# 		Unit	 = 10
# 		DeviceType	 = Axis
# 	bsdd3_PreLifeTime:
# 		XML-ID	 = preSetBRQM1:mca05.PLTM
# 		Name	 = bsdd3_PreLifeTime
# 		Access	 = ca:BRQM1:mca05.PLTM
# 		DeviceType	 = Axis
# Detectors:
# 	Keysight2:
# 		XML-ID	 = A2980:22703chan1
# 		Name	 = Keysight2
# 		Access	 = ca:A2980:22703.VAL
# 		Unit	 = V
# 		DeviceType	 = Channel
# 		Detectortype	 = Standard
# 	Keysight3:
# 		XML-ID	 = A2980:22704chan1
# 		Name	 = Keysight3
# 		Access	 = ca:A2980:22704.VAL
# 		Unit	 = A
# 		DeviceType	 = Channel
# 		Detectortype	 = Interval
# 	bsdd2_Roi0:
# 		XML-ID	 = BRQM1:mca04.R0
# 		Name	 = bsdd2_Roi0
# 		Access	 = ca:BRQM1:mca04.R0
# 		DeviceType	 = Channel
# 		Detectortype	 = Standard
# 	bsdd2_Roi1:
# 		XML-ID	 = BRQM1:mca04.R1
# 		Name	 = bsdd2_Roi1
# 		Access	 = ca:BRQM1:mca04.R1
# 		DeviceType	 = Channel
# 		Detectortype	 = Standard
# 	bsdd2_Roi2:
# 		XML-ID	 = BRQM1:mca04.R2
# 		Name	 = bsdd2_Roi2
# 		Access	 = ca:BRQM1:mca04.R2
# 		DeviceType	 = Channel
# 		Detectortype	 = Standard
# 	bsdd2_Roi3:
# 		XML-ID	 = BRQM1:mca04.R3
# 		Name	 = bsdd2_Roi3
# 		Access	 = ca:BRQM1:mca04.R3
# 		DeviceType	 = Channel
# 		Detectortype	 = Standard
# 	bsdd2_Roi4:
# 		XML-ID	 = BRQM1:mca04.R4
# 		Name	 = bsdd2_Roi4
# 		Access	 = ca:BRQM1:mca04.R4
# 		DeviceType	 = Channel
# 		Detectortype	 = Standard
# 	bsdd2_Roi5:
# 		XML-ID	 = BRQM1:mca04.R5
# 		Name	 = bsdd2_Roi5
# 		Access	 = ca:BRQM1:mca04.R5
# 		DeviceType	 = Channel
# 		Detectortype	 = Standard
# 	bsdd3_Roi0:
# 		XML-ID	 = BRQM1:mca05.R0
# 		Name	 = bsdd3_Roi0
# 		Access	 = ca:BRQM1:mca05.R0
# 		DeviceType	 = Channel
# 		Detectortype	 = Standard
# 	bsdd3_Roi1:
# 		XML-ID	 = BRQM1:mca05.R1
# 		Name	 = bsdd3_Roi1
# 		Access	 = ca:BRQM1:mca05.R1
# 		DeviceType	 = Channel
# 		Detectortype	 = Standard
# 	bsdd3_Roi2:
# 		XML-ID	 = BRQM1:mca05.R2
# 		Name	 = bsdd3_Roi2
# 		Access	 = ca:BRQM1:mca05.R2
# 		DeviceType	 = Channel
# 		Detectortype	 = Standard
# 	bsdd3_Roi3:
# 		XML-ID	 = BRQM1:mca05.R3
# 		Name	 = bsdd3_Roi3
# 		Access	 = ca:BRQM1:mca05.R3
# 		DeviceType	 = Channel
# 		Detectortype	 = Standard
# 	bsdd3_Roi4:
# 		XML-ID	 = BRQM1:mca05.R4
# 		Name	 = bsdd3_Roi4
# 		Access	 = ca:BRQM1:mca05.R4
# 		DeviceType	 = Channel
# 		Detectortype	 = Standard
# 	bsdd3_Roi5:
# 		XML-ID	 = BRQM1:mca05.R5
# 		Name	 = bsdd3_Roi5
# 		Access	 = ca:BRQM1:mca05.R5
# 		DeviceType	 = Channel
# 		Detectortype	 = Standard
# 	Keithley_3:
# 		XML-ID	 = K0617:22726chan1
# 		Name	 = Keithley_3
# 		Access	 = ca:K0617:22726.VAL
# 		Unit	 = A
# 		DeviceType	 = Channel
# 		Detectortype	 = Interval
# 	SM-Counter:
# 		XML-ID	 = SmCounter-det
# 		Name	 = SM-Counter
# 		Access	 = local:SM-Counter
# 		DeviceType	 = Channel
# 		Detectortype	 = Standard
# 	Time:
# 		XML-ID	 = Timer1-det-double
# 		Name	 = Time
# 		Access	 = local:Timer
# 		Unit	 = secs
# 		DeviceType	 = Channel
# 		Detectortype	 = Standard
# 	Ring_1:
# 		XML-ID	 = bIICurrent:Mnt1chan1
# 		Name	 = Ring_1
# 		Access	 = ca:bIICurrent:Mnt1.VAL
# 		Unit	 = mA
# 		DeviceType	 = Channel
# 		Detectortype	 = Interval
# Datasets:
# 	PosCountTimer:
# 		Unit	 = msecs
# 	PosCounter:
# Energy	bsdd2_PreLifeTime	bsdd3_PreLifeTime	Keysight2	Keysight3	bsdd2_Roi0	bsdd2_Roi1	bsdd2_Roi2	bsdd2_Roi3	bsdd2_Roi4	bsdd2_Roi5	bsdd3_Roi0	bsdd3_Roi1	bsdd3_Roi2	bsdd3_Roi3	bsdd3_Roi4	bsdd3_Roi5	Keithley_3	SM-Counter	Time	Ring_1	PosCountTimer	PosCounter
2467	3.5	3.5	-3.42166	7.96e-16	3470.0	610.0	61.0	22.0	5.0	193.0	3637.0	559.0	105.0	2.0	4.0	249.0	8.54815e-13	3	11.571	248.431	5284	3
2467.5	3.5	3.5	-3.42168	2.705e-16	3483.0	691.0	83.0	17.0	2.0	174.0	3633.0	600.0	92.0	6.0	3.0	259.0	8.61225e-13	3	24.833	248.31	24833	4
2468	3.5	3.5	0.498769	-4.76e-16	3473.0	762.0	96.0	18.0	3.0	164.0	3636.0	654.0	98.0	3.0	1.0	254.0	8.26745e-13	3	32.455	248.241	32455	5
2468.5	3.5	3.5	0.498317	-3.31667e-16	3476.0	782.0	77.0	21.0	9.0	222.0	3651.0	795.0	83.0	10.0	5.0	243.0	9.0394e-13	3	38.759	248.164	38759	6
2469	3.5	3.5	0.498502	-3.56e-16	3474.0	897.0	69.0	22.0	8.0	184.0	3639.0	975.0	87.0	4.0	6.0	239.0	8.9653e-13	3	46.064	248.119	46064	7
2469.2	3.5	3.5	0.498501	1.925e-16	3484.0	1034.0	94.0	26.0	7.0	162.0	3628.0	1126.0	95.0	6.0	6.0	230.0	9.70425e-13	3	52.631	248.06	52631	8
2469.5	3.5	3.5	0.498303	7.6e-17	3471.0	1243.0	85.0	21.0	5.0	183.0	3639.0	1454.0	87.0	6.0	2.0	237.0	9.4109e-13	3	58.819	248.004	58819	9
2469.7	3.5	3.5	0.498797	2.39e-16	3487.0	1575.0	73.0	21.0	3.0	172.0	3629.0	1818.0	88.0	5.0	6.0	239.0	9.4238e-13	3	64.682	247.951	64682	10
2469.9	3.5	3.5	0.498655	-5.485e-16	3468.0	1981.0	83.0	21.0	10.0	217.0	3628.0	2362.0	78.0	8.0	2.0	246.0	8.8572e-13	3	71.756	247.887	71756	11
2470	3.5	3.5	0.498631	4.565e-16	3479.0	2221.0	73.0	23.0	7.0	173.0	3637.0	2787.0	79.0	9.0	1.0	230.0	8.8638e-13	3	78.584	247.824	78584	12
2470.1	3.5	3.5	0.498013	-2.655e-16	3497.0	2489.0	85.0	33.0	9.0	180.0	3644.0	3043.0	87.0	14.0	8.0	249.0	8.66885e-13	3	84.989	247.766	84989	13
2470.2	3.5	3.5	0.498449	-7.845e-16	3481.0	2555.0	109.0	25.0	14.0	157.0	3633.0	3187.0	94.0	10.0	3.0	242.0	8.54055e-13	3	90.861	247.713	90861	14
2470.3	3.5	3.5	0.498001	-2.465e-16	3476.0	2696.0	69.0	26.0	14.0	161.0	3641.0	3327.0	103.0	14.0	7.0	245.0	7.50905e-13	3	96.863	247.659	96863	15
2470.4	3.5	3.5	0.498495	5.515e-16	3470.0	2864.0	88.0	31.0	13.0	172.0	3626.0	3605.0	105.0	11.0	8.0	241.0	8.3913e-13	3	102.742	247.59	102742	16
2470.5	3.5	3.5	0.498422	6.555e-16	3490.0	2848.0	84.0	20.0	8.0	191.0	3628.0	3476.0	121.0	13.0	7.0	234.0	7.88515e-13	3	110.678	247.537	110678	17
2470.6	3.5	3.5	0.498687	5.15e-16	3476.0	2845.0	80.0	26.0	15.0	176.0	3640.0	3607.0	113.0	13.0	4.0	260.0	8.1668e-13	3	116.702	248.892	116702	18
2470.7	3.5	3.5	0.498143	1.36333e-16	3479.0	2983.0	88.0	28.0	13.0	175.0	3632.0	3680.0	99.0	10.0	5.0	261.0	7.99563e-13	3	122.542	248.828	122542	19
2470.8	3.5	3.5	0.49871	1.325e-16	3471.0	2789.0	98.0	20.0	9.0	175.0	3639.0	3663.0	97.0	12.0	8.0	234.0	7.91e-13	3	129.827	248.771	129827	20
2470.9	3.5	3.5	0.498649	8.86667e-17	3476.0	3049.0	80.0	32.0	12.0	146.0	3647.0	3841.0	99.0	15.0	10.0	226.0	8.1356e-13	3	137.224	248.696	137224	21
2471	3.5	3.5	0.498564	1.16e-16	3475.0	3358.0	95.0	25.0	12.0	197.0	3624.0	4215.0	118.0	15.0	10.0	273.0	7.4485e-13	3	143.926	248.645	143926	22
2471.1	3.5	3.5	0.498532	-1.795e-16	3484.0	3550.0	80.0	30.0	10.0	178.0	3649.0	4636.0	112.0	14.0	8.0	259.0	6.77945e-13	3	149.795	248.591	149795	23
2471.2	3.5	3.5	0.49826	5.93e-16	3484.0	4127.0	81.0	38.0	14.0	164.0	3644.0	5201.0	98.0	16.0	13.0	243.0	6.9204e-13	3	156.61	248.521	156610	24
2471.3	3.5	3.5	0.498121	2.26667e-17	3477.0	4615.0	89.0	29.0	17.0	179.0	3626.0	5948.0	100.0	13.0	14.0	230.0	7.50883e-13	3	163.606	248.452	163606	25
2471.4	3.5	3.5	0.498529	6.57667e-16	3473.0	5226.0	99.0	29.0	10.0	182.0	3644.0	6858.0	120.0	18.0	14.0	256.0	7.25517e-13	3	170.382	248.397	170382	26
2471.5	3.5	3.5	0.498543	-1.79667e-16	3488.0	5705.0	106.0	33.0	15.0	176.0	3666.0	7494.0	111.0	12.0	7.0	266.0	7.27143e-13	3	176.805	248.339	176805	27
2471.6	3.5	3.5	0.498284	-3.25e-16	3490.0	6593.0	102.0	40.0	28.0	193.0	3620.0	8544.0	95.0	21.0	16.0	251.0	6.79555e-13	3	184.869	248.275	184869	28
2471.7	3.5	3.5	0.49854	4.02333e-16	3488.0	7220.0	115.0	41.0	23.0	176.0	3657.0	9404.0	120.0	21.0	18.0	230.0	6.55963e-13	3	190.72	248.213	190720	29
2471.8	3.5	3.5	0.498551	1.3425e-15	3487.0	7343.0	101.0	34.0	19.0	176.0	3604.0	9757.0	98.0	20.0	22.0	257.0	5.8895e-13	3	198.252	248.155	198252	30
2471.9	3.5	3.5	0.498745	-9.74333e-16	3471.0	7747.0	91.0	41.0	17.0	182.0	3657.0	10229.0	114.0	28.0	19.0	227.0	5.93903e-13	3	205.835	248.078	205835	31
2472	3.5	3.5	0.498402	3.23033e-15	3496.0	8213.0	95.0	37.0	16.0	191.0	3633.0	10613.0	114.0	22.0	18.0	270.0	5.8332e-13	3	212.714	248.015	212714	32
2472.1	3.5	3.5	0.498165	1.257e-15	3475.0	8042.0	98.0	41.0	17.0	186.0	3625.0	10501.0	121.0	27.0	22.0	239.0	5.5578e-13	3	220.715	247.943	220715	33
2472.2	3.5	3.5	0.498509	2.76e-16	3493.0	7844.0	122.0	45.0	31.0	182.0	3622.0	10303.0	102.0	25.0	20.0	217.0	6.01483e-13	3	229.272	247.867	229272	34
2472.3	3.5	3.5	0.498842	-4.3e-17	3477.0	7928.0	105.0	40.0	19.0	181.0	3617.0	10379.0	123.0	28.0	22.0	233.0	5.60457e-13	3	236.793	247.799	236793	35
2472.4	3.5	3.5	0.498197	-5.105e-16	3485.0	7752.0	112.0	42.0	15.0	168.0	3613.0	10408.0	135.0	23.0	14.0	272.0	5.5281e-13	3	243.92	247.744	243920	36
2472.5	3.5	3.5	0.498656	1e-17	3477.0	7397.0	109.0	38.0	26.0	210.0	3643.0	9791.0	124.0	19.0	27.0	251.0	4.96487e-13	3	249.136	247.689	249136	37
2472.6	3.5	3.5	0.498603	2.68667e-16	3485.0	7378.0	104.0	46.0	11.0	196.0	3632.0	9889.0	116.0	35.0	14.0	249.0	5.28443e-13	3	256.212	247.626	256212	38
2472.7	3.5	3.5	0.498715	1.00667e-16	3477.0	7367.0	96.0	39.0	20.0	201.0	3637.0	9524.0	124.0	22.0	14.0	247.0	6.20313e-13	3	264.189	248.514	264189	39
2472.8	3.5	3.5	0.498532	-1.015e-16	3472.0	6723.0	94.0	33.0	21.0	185.0	3633.0	8838.0	113.0	24.0	22.0	267.0	5.96915e-13	3	270.952	248.936	270952	40
2472.9	3.5	3.5	0.498157	8.14333e-16	3487.0	6301.0	88.0	35.0	14.0	194.0	3660.0	8580.0	97.0	23.0	21.0	255.0	6.02907e-13	3	276.147	248.881	276147	41
2473	3.5	3.5	0.498895	1.25e-15	3477.0	6175.0	98.0	41.0	14.0	171.0	3627.0	8212.0	116.0	18.0	12.0	234.0	6.0025e-13	3	283.44	248.815	283440	42
2473.1	3.5	3.5	0.498365	1.17e-15	3491.0	5834.0	114.0	34.0	14.0	175.0	3613.0	7653.0	103.0	22.0	19.0	265.0	4.9903e-13	3	291.131	248.756	291131	43
2473.2	3.5	3.5	0.498684	2.93e-16	3482.0	5457.0	83.0	31.0	12.0	178.0	3639.0	7190.0	118.0	13.0	18.0	239.0	5.2939e-13	3	297.154	248.692	297154	44
2473.3	3.5	3.5	0.498657	3.89333e-16	3474.0	5445.0	109.0	32.0	15.0	184.0	3628.0	7018.0	96.0	17.0	13.0	240.0	6.02287e-13	3	304.609	248.624	304609	45
2473.4	3.5	3.5	0.498365	1.835e-16	3488.0	5211.0	88.0	32.0	15.0	182.0	3639.0	6789.0	97.0	21.0	12.0	234.0	5.58695e-13	3	313.111	248.557	313111	46
2473.5	3.5	3.5	0.498665	1.63e-16	3483.0	4880.0	117.0	39.0	11.0	175.0	3627.0	6382.0	135.0	17.0	14.0	259.0	6.11543e-13	3	320.523	248.481	320523	47
2473.6	3.5	3.5	0.49857	2.09667e-16	3484.0	4796.0	107.0	34.0	18.0	182.0	3615.0	6309.0	120.0	25.0	8.0	277.0	6.19713e-13	3	327.257	248.421	327257	48
2473.7	3.5	3.5	0.498715	4.64e-16	3474.0	4710.0	93.0	26.0	8.0	196.0	3630.0	5887.0	105.0	13.0	8.0	232.0	5.90945e-13	3	333.647	248.373	333647	49
2473.8	3.5	3.5	0.498407	2.58333e-16	3485.0	4287.0	101.0	32.0	11.0	158.0	3660.0	5560.0	111.0	18.0	14.0	228.0	6.1595e-13	3	338.924	248.317	338924	50
2473.9	3.5	3.5	0.498745	-1.82e-16	3480.0	4167.0	85.0	40.0	14.0	181.0	3612.0	5514.0	96.0	12.0	10.0	248.0	6.7108e-13	3	346.7	248.257	346700	51
2474	3.5	3.5	0.498611	3.37e-16	3479.0	4199.0	100.0	31.0	12.0	183.0	3655.0	5517.0	121.0	19.0	15.0	245.0	6.7264e-13	3	352.196	248.192	352195	52
2474.2	3.5	3.5	0.498552	3.50333e-16	3478.0	3713.0	82.0	30.0	14.0	173.0	3632.0	4931.0	128.0	5.0	10.0	257.0	6.3643e-13	3	360.66	248.122	360660	53
2474.4	3.5	3.5	0.498341	3.92e-16	3484.0	3625.0	99.0	30.0	11.0	173.0	3612.0	4691.0	89.0	13.0	9.0	263.0	6.745e-13	3	368.342	248.061	368342	54
2474.6	3.5	3.5	0.498506	5.09e-16	3470.0	3641.0	87.0	25.0	16.0	159.0	3638.0	4729.0	80.0	11.0	10.0	218.0	6.1553e-13	3	374.646	247.996	374645	55
2474.8	3.5	3.5	0.498458	-1.4e-16	3467.0	3613.0	79.0	36.0	18.0	180.0	3619.0	4745.0	88.0	9.0	11.0	245.0	5.26185e-13	3	382.144	247.938	382144	56
2475	3.5	3.5	0.498604	-3.79667e-16	3484.0	3787.0	81.0	40.0	10.0	161.0	3641.0	5023.0	103.0	14.0	12.0	251.0	4.94857e-13	3	388.315	247.874	388315	57
2475.2	3.5	3.5	0.498451	3.70667e-16	3480.0	3865.0	88.0	30.0	12.0	178.0	3623.0	5126.0	103.0	18.0	12.0	269.0	5.86833e-13	3	396.463	247.802	396463	58
2475.4	3.5	3.5	0.498537	-2.1e-16	3474.0	4169.0	87.0	25.0	12.0	192.0	3632.0	5385.0	109.0	18.0	12.0	256.0	7.31197e-13	3	403.91	247.735	403910	59
2475.6	3.5	3.5	0.498646	4.68667e-16	3471.0	4494.0	105.0	31.0	19.0	180.0	3655.0	5927.0	113.0	13.0	13.0	239.0	6.91497e-13	3	411.314	247.663	411314	60
2475.8	3.5	3.5	0.498318	2.33e-16	3465.0	4850.0	99.0	37.0	18.0	176.0	3639.0	6408.0	106.0	17.0	13.0	235.0	5.8159e-13	3	418.449	247.615	418449	61
2476	3.5	3.5	0.498584	2.01333e-16	3478.0	5343.0	93.0	32.0	20.0	170.0	3632.0	6811.0	94.0	21.0	15.0	272.0	6.36263e-13	3	424.509	247.551	424509	62
2476.2	3.5	3.5	0.498565	-4.91333e-16	3480.0	5512.0	104.0	33.0	15.0	208.0	3627.0	7413.0	116.0	16.0	7.0	282.0	5.5342e-13	3	432.405	247.591	432405	63
2476.4	3.5	3.5	0.498429	-7.22e-16	3479.0	5885.0	93.0	37.0	16.0	188.0	3626.0	7807.0	112.0	17.0	20.0	261.0	6.26095e-13	3	440.071	247.73	440071	64
2476.6	3.5	3.5	0.498471	-6.20333e-16	3478.0	6404.0	109.0	36.0	21.0	196.0	3647.0	8696.0	119.0	25.0	21.0	241.0	6.347e-13	3	446.144	247.668	446144	65
2476.8	3.5	3.5	0.498579	5.8e-17	3486.0	7025.0	93.0	33.0	19.0	157.0	3620.0	9006.0	112.0	20.0	16.0	263.0	6.0491e-13	3	454.156	247.609	454156	66
2477	3.5	3.5	0.498423	-5.98e-16	3474.0	7352.0	107.0	30.0	32.0	180.0	3612.0	9718.0	119.0	21.0	23.0	254.0	6.11487e-13	3	462.356	247.818	462356	67
2477.2	3.5	3.5	0.498728	-1.03433e-15	3475.0	8143.0	101.0	41.0	30.0	195.0	3625.0	10967.0	118.0	22.0	14.0	248.0	6.87647e-13	3	470.812	248.301	470812	68
2477.4	3.5	3.5	0.49843	-5.03333e-17	3479.0	8955.0	113.0	36.0	22.0	181.0	3630.0	12153.0	125.0	28.0	22.0	252.0	7.26723e-13	3	477.957	248.242	477956	69
2477.6	3.5	3.5	0.498674	2.52333e-16	3488.0	10135.0	128.0	45.0	29.0	184.0	3627.0	13448.0	124.0	22.0	23.0	269.0	7.84153e-13	3	485.078	248.177	485078	70
2477.8	3.5	3.5	0.498334	2.88333e-16	3480.0	11505.0	112.0	43.0	30.0	196.0	3644.0	15652.0	130.0	32.0	22.0	275.0	7.92177e-13	3	492.004	248.113	492004	71
2478	3.5	3.5	0.498103	1.73433e-15	3486.0	13376.0	115.0	66.0	38.0	206.0	3635.0	18192.0	135.0	43.0	39.0	281.0	6.97567e-13	3	499.441	248.046	499441	72
2478.2	3.5	3.5	0.498551	7.91333e-16	3475.0	16559.0	161.0	65.0	51.0	199.0	3650.0	22894.0	128.0	51.0	41.0	252.0	6.43293e-13	3	508.674	247.962	508674	73
2478.4	3.5	3.5	0.498417	1.88633e-15	3496.0	21035.0	162.0	55.0	43.0	202.0	3650.0	29105.0	169.0	62.0	43.0	277.0	6.03097e-13	3	516.951	247.888	516951	74
2478.6	3.5	3.5	0.498608	-2.13e-16	3480.0	26794.0	205.0	81.0	87.0	179.0	3618.0	37752.0	198.0	75.0	56.0	286.0	5.89633e-13	3	524.19	247.822	524190	75
2478.8	3.5	3.5	0.498628	2.16e-16	3484.0	34446.0	240.0	120.0	96.0	211.0	3646.0	48444.0	246.0	106.0	62.0	286.0	6.8036e-13	3	531.129	247.759	531129	76
2479	1.5	1.5	0.498569	2.599e-15	1491.0	16879.0	99.0	47.0	29.0	89.0	1553.0	24436.0	118.0	72.0	40.0	130.0	6.8421e-13	3	539.179	247.697	539179	77
2479.2	1.5	1.5	0.498652	6.8e-16	1490.0	19014.0	131.0	49.0	55.0	96.0	1548.0	27375.0	121.0	52.0	43.0	98.0	7.16855e-13	3	544.977	247.644	544977	78
2479.4	1.5	1.5	0.498298	1.012e-15	1493.0	19541.0	127.0	48.0	48.0	92.0	1563.0	29021.0	139.0	45.0	48.0	97.0	6.38385e-13	3	551.07	247.588	551070	79
2479.6	1.5	1.5	0.498443	1.605e-15	1493.0	19858.0	114.0	53.0	50.0	89.0	1552.0	29153.0	126.0	63.0	55.0	138.0	6.08815e-13	3	557.056	247.534	557056	80
2479.8	1.5	1.5	0.498631	1.702e-15	1486.0	19987.0	122.0	61.0	50.0	124.0	1549.0	29465.0	131.0	52.0	39.0	132.0	6.44785e-13	3	562.067	247.67	562067	81
2480	1.5	1.5	0.498569	1.272e-15	1490.0	20333.0	135.0	56.0	46.0	122.0	1578.0	30490.0	140.0	59.0	66.0	110.0	7.29535e-13	3	566.947	248.804	566947	82
2480.2	1.5	1.5	0.498522	1.1835e-15	1491.0	20869.0	142.0	58.0	42.0	113.0	1549.0	30456.0	127.0	60.0	55.0	118.0	5.9819e-13	3	573.057	248.744	573057	83
2480.4	1.5	1.5	0.49861	8.48e-16	1487.0	20925.0	114.0	57.0	53.0	111.0	1559.0	30376.0	138.0	65.0	50.0	103.0	6.28725e-13	3	579.971	248.68	579971	84
2480.6	1.5	1.5	0.49835	2.285e-16	1484.0	19743.0	119.0	60.0	53.0	95.0	1565.0	29366.0	134.0	47.0	46.0	114.0	6.30555e-13	3	585.004	248.639	585004	85
2480.8	1.5	1.5	0.498588	2.38e-16	1491.0	19660.0	118.0	62.0	47.0	94.0	1561.0	27272.0	109.0	43.0	61.0	120.0	6.90615e-13	3	591.396	248.582	591396	86
2481	1.5	1.5	0.498427	6.555e-16	1483.0	17113.0	122.0	58.0	43.0	93.0	1550.0	24317.0	103.0	43.0	50.0	104.0	7.1233e-13	3	599.083	248.498	599083	87
2481.2	1.5	1.5	0.498389	-5.7e-17	1487.0	15107.0	101.0	42.0	40.0	99.0	1557.0	21144.0	108.0	30.0	35.0	139.0	6.8418e-13	3	604.159	248.466	604159	88
2481.4	1.5	1.5	0.49881	-6.2e-16	1491.0	12935.0	84.0	36.0	29.0	109.0	1553.0	17850.0	79.0	31.0	22.0	110.0	6.4949e-13	3	609.376	248.415	609375	89
2481.6	1.5	1.5	0.498465	2.19e-16	1492.0	11602.0	84.0	39.0	31.0	101.0	1559.0	15735.0	81.0	31.0	30.0	90.0	7.0082e-13	3	614.568	248.386	614568	90
2481.8	1.5	1.5	0.498393	2.15e-16	1493.0	10094.0	70.0	40.0	32.0	86.0	1556.0	14207.0	81.0	28.0	17.0	128.0	7.3384e-13	3	618.62	248.348	618620	91
2482	1.5	1.5	0.498726	-8.3e-17	1494.0	9514.0	78.0	25.0	25.0	74.0	1561.0	13212.0	65.0	25.0	17.0	108.0	6.883e-13	3	622.627	248.304	622627	92
2482.2	1.5	1.5	0.498648	3.88e-16	1492.0	9102.0	75.0	24.0	27.0	83.0	1556.0	12766.0	66.0	24.0	21.0	118.0	7.1051e-13	3	626.476	248.276	626476	93
2482.4	1.5	1.5	0.498522	5.43e-16	1491.0	9188.0	82.0	27.0	23.0	81.0	1555.0	12379.0	50.0	21.0	20.0	103.0	7.1811e-13	3	630.543	248.241	630543	94
2482.6	1.5	1.5	0.49859	6.49e-16	1491.0	8841.0	59.0	31.0	24.0	99.0	1546.0	11998.0	65.0	18.0	14.0	84.0	7.2676e-13	3	634.656	248.194	634655	95
2482.8	1.5	1.5	0.498338	9.5e-17	1494.0	9269.0	73.0	26.0	20.0	94.0	1570.0	12909.0	84.0	26.0	19.0	111.0	6.8415e-13	3	639.145	248.154	639145	96
2483	1.5	1.5	0.49861	-3.4e-16	1492.0	9393.0	68.0	29.0	26.0	99.0	1573.0	13296.0	68.0	23.0	26.0	117.0	6.52995e-13	3	643.206	248.108	643206	97
2484	1.5	1.5	0.498381	-2.51e-16	1488.0	11184.0	62.0	29.0	14.0	102.0	1550.0	15339.0	84.0	29.0	23.0	107.0	8.3162e-13	3	649.398	248.07	649397	98
2485	1.5	1.5	0.498587	5.6e-17	1489.0	12631.0	75.0	38.0	33.0	90.0	1559.0	17131.0	113.0	38.0	31.0	110.0	7.02785e-13	3	654.529	248.015	654529	99
2486	1.5	1.5	0.498423	-3e-16	1493.0	11197.0	70.0	32.0	30.0	87.0	1569.0	15374.0	82.0	37.0	22.0	107.0	6.87705e-13	3	661.825	247.945	661824	100
2487	1.5	1.5	0.49835	-1.0365e-15	1502.0	9337.0	67.0	33.0	20.0	96.0	1582.0	13060.0	84.0	26.0	14.0	121.0	7.7602e-13	3	668.312	247.882	668312	101
2488	1.5	1.5	0.498612	-3.5e-17	1488.0	8636.0	81.0	34.0	20.0	98.0	1547.0	11907.0	75.0	27.0	28.0	116.0	6.9433e-13	3	674.846	247.832	674846	102
2489	1.5	1.5	0.498525	-5.35e-17	1492.0	9074.0	68.0	32.0	18.0	87.0	1562.0	12694.0	64.0	27.0	21.0	103.0	6.37085e-13	3	679.611	247.784	679611	103
2490	1.5	1.5	0.498359	-5.9e-17	1494.0	9658.0	64.0	31.0	30.0	100.0	1571.0	13147.0	74.0	34.0	15.0	110.0	6.599e-13	3	685.417	247.746	685417	104